Created as New Dataset,Sample 001 By Administrator Date Friday, December 11 2020
cm-1,A
4000.00,0.2812
3999.00,0.2813
3998.00,0.2813
3997.00,0.2813
3996.00,0.2814
3995.00,0.2813
3994.00,0.2813
3993.00,0.2814
3992.00,0.2815
3991.00,0.2815
3990.00,0.2815
3989.00,0.2815
3988.00,0.2816
3987.00,0.2816
3986.00,0.2817
3985.00,0.2817
3984.00,0.2817
3983.00,0.2818
3982.00,0.2818
3981.00,0.2818
3980.00,0.2819
3979.00,0.2819
3978.00,0.2820
3977.00,0.2820
3976.00,0.2820
3975.00,0.2820
3974.00,0.2820
3973.00,0.2820
3972.00,0.2821
3971.00,0.2821
3970.00,0.2822
3969.00,0.2823
3968.00,0.2823
3967.00,0.2824
3966.00,0.2824
3965.00,0.2825
3964.00,0.2825
3963.00,0.2825
3962.00,0.2825
3961.00,0.2825
3960.00,0.2826
3959.00,0.2828
3958.00,0.2829
3957.00,0.2829
3956.00,0.2829
3955.00,0.2830
3954.00,0.2830
3953.00,0.2831
3952.00,0.2831
3951.00,0.2831
3950.00,0.2831
3949.00,0.2830
3948.00,0.2830
3947.00,0.2831
3946.00,0.2833
3945.00,0.2836
3944.00,0.2836
3943.00,0.2833
3942.00,0.2831
3941.00,0.2832
3940.00,0.2836
3939.00,0.2838
3938.00,0.2838
3937.00,0.2838
3936.00,0.2838
3935.00,0.2840
3934.00,0.2840
3933.00,0.2839
3932.00,0.2838
3931.00,0.2839
3930.00,0.2840
3929.00,0.2841
3928.00,0.2843
3927.00,0.2845
3926.00,0.2845
3925.00,0.2843
3924.00,0.2840
3923.00,0.2841
3922.00,0.2844
3921.00,0.2845
3920.00,0.2844
3919.00,0.2844
3918.00,0.2846
3917.00,0.2847
3916.00,0.2847
3915.00,0.2849
3914.00,0.2851
3913.00,0.2852
3912.00,0.2852
3911.00,0.2851
3910.00,0.2852
3909.00,0.2854
3908.00,0.2856
3907.00,0.2859
3906.00,0.2859
3905.00,0.2854
3904.00,0.2848
3903.00,0.2847
3902.00,0.2851
3901.00,0.2857
3900.00,0.2858
3899.00,0.2856
3898.00,0.2856
3897.00,0.2859
3896.00,0.2860
3895.00,0.2861
3894.00,0.2863
3893.00,0.2864
3892.00,0.2862
3891.00,0.2857
3890.00,0.2856
3889.00,0.2861
3888.00,0.2870
3887.00,0.2874
3886.00,0.2868
3885.00,0.2863
3884.00,0.2866
3883.00,0.2873
3882.00,0.2873
3881.00,0.2865
3880.00,0.2857
3879.00,0.2856
3878.00,0.2864
3877.00,0.2873
3876.00,0.2877
3875.00,0.2873
3874.00,0.2865
3873.00,0.2866
3872.00,0.2876
3871.00,0.2882
3870.00,0.2876
3869.00,0.2871
3868.00,0.2877
3867.00,0.2887
3866.00,0.2887
3865.00,0.2878
3864.00,0.2873
3863.00,0.2876
3862.00,0.2879
3861.00,0.2879
3860.00,0.2880
3859.00,0.2884
3858.00,0.2891
3857.00,0.2902
3856.00,0.2917
3855.00,0.2922
3854.00,0.2915
3853.00,0.2918
3852.00,0.2931
3851.00,0.2933
3850.00,0.2919
3849.00,0.2902
3848.00,0.2891
3847.00,0.2891
3846.00,0.2894
3845.00,0.2895
3844.00,0.2895
3843.00,0.2894
3842.00,0.2895
3841.00,0.2900
3840.00,0.2904
3839.00,0.2906
3838.00,0.2908
3837.00,0.2913
3836.00,0.2917
3835.00,0.2914
3834.00,0.2910
3833.00,0.2906
3832.00,0.2904
3831.00,0.2903
3830.00,0.2905
3829.00,0.2910
3828.00,0.2913
3827.00,0.2911
3826.00,0.2905
3825.00,0.2906
3824.00,0.2916
3823.00,0.2925
3822.00,0.2921
3821.00,0.2911
3820.00,0.2908
3819.00,0.2918
3818.00,0.2931
3817.00,0.2935
3816.00,0.2930
3815.00,0.2931
3814.00,0.2938
3813.00,0.2939
3812.00,0.2931
3811.00,0.2922
3810.00,0.2923
3809.00,0.2931
3808.00,0.2935
3807.00,0.2930
3806.00,0.2927
3805.00,0.2933
3804.00,0.2944
3803.00,0.2949
3802.00,0.2941
3801.00,0.2935
3800.00,0.2941
3799.00,0.2947
3798.00,0.2944
3797.00,0.2935
3796.00,0.2928
3795.00,0.2930
3794.00,0.2937
3793.00,0.2942
3792.00,0.2942
3791.00,0.2941
3790.00,0.2942
3789.00,0.2944
3788.00,0.2946
3787.00,0.2947
3786.00,0.2949
3785.00,0.2948
3784.00,0.2948
3783.00,0.2950
3782.00,0.2954
3781.00,0.2958
3780.00,0.2956
3779.00,0.2954
3778.00,0.2955
3777.00,0.2961
3776.00,0.2966
3775.00,0.2967
3774.00,0.2966
3773.00,0.2970
3772.00,0.2975
3771.00,0.2975
3770.00,0.2971
3769.00,0.2971
3768.00,0.2976
3767.00,0.2981
3766.00,0.2981
3765.00,0.2978
3764.00,0.2978
3763.00,0.2983
3762.00,0.2989
3761.00,0.2989
3760.00,0.2985
3759.00,0.2984
3758.00,0.2985
3757.00,0.2986
3756.00,0.2989
3755.00,0.2996
3754.00,0.3005
3753.00,0.3010
3752.00,0.3010
3751.00,0.3013
3750.00,0.3017
3749.00,0.3015
3748.00,0.3012
3747.00,0.3017
3746.00,0.3023
3745.00,0.3015
3744.00,0.3011
3743.00,0.3021
3742.00,0.3024
3741.00,0.3012
3740.00,0.2997
3739.00,0.2992
3738.00,0.2998
3737.00,0.3002
3736.00,0.2998
3735.00,0.2993
3734.00,0.2995
3733.00,0.2999
3732.00,0.3001
3731.00,0.3002
3730.00,0.3004
3729.00,0.3006
3728.00,0.3006
3727.00,0.3002
3726.00,0.2999
3725.00,0.3000
3724.00,0.3003
3723.00,0.3003
3722.00,0.3001
3721.00,0.3001
3720.00,0.3004
3719.00,0.3008
3718.00,0.3009
3717.00,0.3008
3716.00,0.3010
3715.00,0.3015
3714.00,0.3019
3713.00,0.3019
3712.00,0.3017
3711.00,0.3019
3710.00,0.3021
3709.00,0.3023
3708.00,0.3023
3707.00,0.3023
3706.00,0.3024
3705.00,0.3026
3704.00,0.3029
3703.00,0.3030
3702.00,0.3029
3701.00,0.3029
3700.00,0.3031
3699.00,0.3036
3698.00,0.3039
3697.00,0.3039
3696.00,0.3038
3695.00,0.3040
3694.00,0.3044
3693.00,0.3047
3692.00,0.3048
3691.00,0.3049
3690.00,0.3050
3689.00,0.3053
3688.00,0.3060
3687.00,0.3068
3686.00,0.3069
3685.00,0.3063
3684.00,0.3055
3683.00,0.3052
3682.00,0.3055
3681.00,0.3058
3680.00,0.3058
3679.00,0.3058
3678.00,0.3065
3677.00,0.3072
3676.00,0.3068
3675.00,0.3064
3674.00,0.3068
3673.00,0.3077
3672.00,0.3084
3671.00,0.3082
3670.00,0.3077
3669.00,0.3079
3668.00,0.3084
3667.00,0.3085
3666.00,0.3082
3665.00,0.3079
3664.00,0.3080
3663.00,0.3083
3662.00,0.3087
3661.00,0.3088
3660.00,0.3089
3659.00,0.3093
3658.00,0.3099
3657.00,0.3101
3656.00,0.3100
3655.00,0.3101
3654.00,0.3107
3653.00,0.3114
3652.00,0.3117
3651.00,0.3112
3650.00,0.3109
3649.00,0.3114
3648.00,0.3123
3647.00,0.3128
3646.00,0.3129
3645.00,0.3130
3644.00,0.3132
3643.00,0.3134
3642.00,0.3135
3641.00,0.3138
3640.00,0.3141
3639.00,0.3144
3638.00,0.3146
3637.00,0.3148
3636.00,0.3152
3635.00,0.3155
3634.00,0.3156
3633.00,0.3157
3632.00,0.3164
3631.00,0.3174
3630.00,0.3177
3629.00,0.3174
3628.00,0.3181
3627.00,0.3192
3626.00,0.3197
3625.00,0.3193
3624.00,0.3189
3623.00,0.3191
3622.00,0.3197
3621.00,0.3201
3620.00,0.3201
3619.00,0.3201
3618.00,0.3204
3617.00,0.3210
3616.00,0.3215
3615.00,0.3218
3614.00,0.3218
3613.00,0.3217
3612.00,0.3221
3611.00,0.3228
3610.00,0.3236
3609.00,0.3241
3608.00,0.3245
3607.00,0.3249
3606.00,0.3253
3605.00,0.3256
3604.00,0.3259
3603.00,0.3262
3602.00,0.3266
3601.00,0.3268
3600.00,0.3270
3599.00,0.3275
3598.00,0.3279
3597.00,0.3283
3596.00,0.3286
3595.00,0.3289
3594.00,0.3292
3593.00,0.3295
3592.00,0.3299
3591.00,0.3305
3590.00,0.3311
3589.00,0.3314
3588.00,0.3315
3587.00,0.3317
3586.00,0.3321
3585.00,0.3327
3584.00,0.3332
3583.00,0.3335
3582.00,0.3338
3581.00,0.3341
3580.00,0.3345
3579.00,0.3349
3578.00,0.3353
3577.00,0.3356
3576.00,0.3360
3575.00,0.3363
3574.00,0.3367
3573.00,0.3370
3572.00,0.3373
3571.00,0.3377
3570.00,0.3381
3569.00,0.3383
3568.00,0.3384
3567.00,0.3386
3566.00,0.3390
3565.00,0.3396
3564.00,0.3401
3563.00,0.3406
3562.00,0.3409
3561.00,0.3412
3560.00,0.3416
3559.00,0.3421
3558.00,0.3425
3557.00,0.3429
3556.00,0.3433
3555.00,0.3437
3554.00,0.3441
3553.00,0.3443
3552.00,0.3445
3551.00,0.3449
3550.00,0.3453
3549.00,0.3458
3548.00,0.3462
3547.00,0.3465
3546.00,0.3468
3545.00,0.3471
3544.00,0.3476
3543.00,0.3480
3542.00,0.3484
3541.00,0.3488
3540.00,0.3491
3539.00,0.3496
3538.00,0.3500
3537.00,0.3503
3536.00,0.3506
3535.00,0.3510
3534.00,0.3514
3533.00,0.3517
3532.00,0.3520
3531.00,0.3523
3530.00,0.3527
3529.00,0.3529
3528.00,0.3532
3527.00,0.3535
3526.00,0.3539
3525.00,0.3544
3524.00,0.3547
3523.00,0.3550
3522.00,0.3553
3521.00,0.3557
3520.00,0.3561
3519.00,0.3564
3518.00,0.3567
3517.00,0.3570
3516.00,0.3574
3515.00,0.3578
3514.00,0.3581
3513.00,0.3584
3512.00,0.3587
3511.00,0.3590
3510.00,0.3592
3509.00,0.3594
3508.00,0.3598
3507.00,0.3602
3506.00,0.3606
3505.00,0.3608
3504.00,0.3610
3503.00,0.3613
3502.00,0.3615
3501.00,0.3618
3500.00,0.3622
3499.00,0.3625
3498.00,0.3628
3497.00,0.3631
3496.00,0.3634
3495.00,0.3637
3494.00,0.3640
3493.00,0.3643
3492.00,0.3646
3491.00,0.3648
3490.00,0.3651
3489.00,0.3653
3488.00,0.3656
3487.00,0.3658
3486.00,0.3661
3485.00,0.3665
3484.00,0.3667
3483.00,0.3670
3482.00,0.3672
3481.00,0.3674
3480.00,0.3676
3479.00,0.3679
3478.00,0.3682
3477.00,0.3685
3476.00,0.3687
3475.00,0.3690
3474.00,0.3692
3473.00,0.3695
3472.00,0.3697
3471.00,0.3700
3470.00,0.3702
3469.00,0.3704
3468.00,0.3707
3467.00,0.3709
3466.00,0.3711
3465.00,0.3714
3464.00,0.3716
3463.00,0.3718
3462.00,0.3720
3461.00,0.3721
3460.00,0.3723
3459.00,0.3725
3458.00,0.3727
3457.00,0.3729
3456.00,0.3731
3455.00,0.3733
3454.00,0.3735
3453.00,0.3737
3452.00,0.3738
3451.00,0.3739
3450.00,0.3741
3449.00,0.3742
3448.00,0.3743
3447.00,0.3743
3446.00,0.3744
3445.00,0.3746
3444.00,0.3748
3443.00,0.3749
3442.00,0.3750
3441.00,0.3751
3440.00,0.3751
3439.00,0.3752
3438.00,0.3753
3437.00,0.3754
3436.00,0.3754
3435.00,0.3755
3434.00,0.3756
3433.00,0.3756
3432.00,0.3756
3431.00,0.3756
3430.00,0.3756
3429.00,0.3756
3428.00,0.3755
3427.00,0.3755
3426.00,0.3755
3425.00,0.3755
3424.00,0.3754
3423.00,0.3754
3422.00,0.3754
3421.00,0.3753
3420.00,0.3752
3419.00,0.3751
3418.00,0.3751
3417.00,0.3750
3416.00,0.3750
3415.00,0.3749
3414.00,0.3749
3413.00,0.3748
3412.00,0.3748
3411.00,0.3747
3410.00,0.3746
3409.00,0.3745
3408.00,0.3744
3407.00,0.3744
3406.00,0.3743
3405.00,0.3742
3404.00,0.3742
3403.00,0.3742
3402.00,0.3741
3401.00,0.3741
3400.00,0.3740
3399.00,0.3739
3398.00,0.3738
3397.00,0.3737
3396.00,0.3736
3395.00,0.3736
3394.00,0.3735
3393.00,0.3735
3392.00,0.3734
3391.00,0.3734
3390.00,0.3734
3389.00,0.3733
3388.00,0.3732
3387.00,0.3732
3386.00,0.3731
3385.00,0.3731
3384.00,0.3730
3383.00,0.3730
3382.00,0.3730
3381.00,0.3730
3380.00,0.3729
3379.00,0.3729
3378.00,0.3728
3377.00,0.3727
3376.00,0.3726
3375.00,0.3724
3374.00,0.3723
3373.00,0.3722
3372.00,0.3720
3371.00,0.3719
3370.00,0.3717
3369.00,0.3715
3368.00,0.3712
3367.00,0.3710
3366.00,0.3707
3365.00,0.3704
3364.00,0.3702
3363.00,0.3699
3362.00,0.3697
3361.00,0.3694
3360.00,0.3691
3359.00,0.3688
3358.00,0.3686
3357.00,0.3682
3356.00,0.3679
3355.00,0.3677
3354.00,0.3674
3353.00,0.3672
3352.00,0.3669
3351.00,0.3667
3350.00,0.3665
3349.00,0.3662
3348.00,0.3659
3347.00,0.3657
3346.00,0.3654
3345.00,0.3652
3344.00,0.3649
3343.00,0.3647
3342.00,0.3645
3341.00,0.3643
3340.00,0.3641
3339.00,0.3640
3338.00,0.3638
3337.00,0.3636
3336.00,0.3633
3335.00,0.3632
3334.00,0.3630
3333.00,0.3629
3332.00,0.3627
3331.00,0.3626
3330.00,0.3624
3329.00,0.3623
3328.00,0.3621
3327.00,0.3620
3326.00,0.3619
3325.00,0.3618
3324.00,0.3617
3323.00,0.3616
3322.00,0.3615
3321.00,0.3615
3320.00,0.3614
3319.00,0.3613
3318.00,0.3612
3317.00,0.3611
3316.00,0.3610
3315.00,0.3609
3314.00,0.3609
3313.00,0.3608
3312.00,0.3607
3311.00,0.3607
3310.00,0.3607
3309.00,0.3606
3308.00,0.3605
3307.00,0.3605
3306.00,0.3604
3305.00,0.3603
3304.00,0.3602
3303.00,0.3601
3302.00,0.3600
3301.00,0.3600
3300.00,0.3599
3299.00,0.3598
3298.00,0.3598
3297.00,0.3597
3296.00,0.3596
3295.00,0.3595
3294.00,0.3594
3293.00,0.3594
3292.00,0.3593
3291.00,0.3592
3290.00,0.3592
3289.00,0.3591
3288.00,0.3590
3287.00,0.3589
3286.00,0.3589
3285.00,0.3588
3284.00,0.3587
3283.00,0.3587
3282.00,0.3586
3281.00,0.3586
3280.00,0.3586
3279.00,0.3585
3278.00,0.3585
3277.00,0.3584
3276.00,0.3584
3275.00,0.3583
3274.00,0.3582
3273.00,0.3582
3272.00,0.3582
3271.00,0.3582
3270.00,0.3582
3269.00,0.3582
3268.00,0.3582
3267.00,0.3581
3266.00,0.3581
3265.00,0.3580
3264.00,0.3580
3263.00,0.3579
3262.00,0.3579
3261.00,0.3579
3260.00,0.3579
3259.00,0.3579
3258.00,0.3579
3257.00,0.3579
3256.00,0.3578
3255.00,0.3578
3254.00,0.3578
3253.00,0.3578
3252.00,0.3577
3251.00,0.3577
3250.00,0.3577
3249.00,0.3577
3248.00,0.3577
3247.00,0.3577
3246.00,0.3577
3245.00,0.3577
3244.00,0.3576
3243.00,0.3576
3242.00,0.3576
3241.00,0.3576
3240.00,0.3576
3239.00,0.3576
3238.00,0.3577
3237.00,0.3576
3236.00,0.3576
3235.00,0.3576
3234.00,0.3576
3233.00,0.3575
3232.00,0.3575
3231.00,0.3575
3230.00,0.3575
3229.00,0.3575
3228.00,0.3576
3227.00,0.3576
3226.00,0.3576
3225.00,0.3576
3224.00,0.3575
3223.00,0.3575
3222.00,0.3575
3221.00,0.3575
3220.00,0.3574
3219.00,0.3574
3218.00,0.3575
3217.00,0.3575
3216.00,0.3575
3215.00,0.3575
3214.00,0.3575
3213.00,0.3575
3212.00,0.3575
3211.00,0.3575
3210.00,0.3575
3209.00,0.3575
3208.00,0.3575
3207.00,0.3575
3206.00,0.3575
3205.00,0.3575
3204.00,0.3575
3203.00,0.3575
3202.00,0.3575
3201.00,0.3575
3200.00,0.3575
3199.00,0.3576
3198.00,0.3576
3197.00,0.3576
3196.00,0.3576
3195.00,0.3576
3194.00,0.3577
3193.00,0.3577
3192.00,0.3577
3191.00,0.3577
3190.00,0.3577
3189.00,0.3577
3188.00,0.3578
3187.00,0.3578
3186.00,0.3578
3185.00,0.3579
3184.00,0.3579
3183.00,0.3579
3182.00,0.3579
3181.00,0.3579
3180.00,0.3579
3179.00,0.3579
3178.00,0.3580
3177.00,0.3580
3176.00,0.3580
3175.00,0.3581
3174.00,0.3581
3173.00,0.3581
3172.00,0.3581
3171.00,0.3581
3170.00,0.3582
3169.00,0.3582
3168.00,0.3582
3167.00,0.3582
3166.00,0.3583
3165.00,0.3583
3164.00,0.3584
3163.00,0.3584
3162.00,0.3584
3161.00,0.3584
3160.00,0.3585
3159.00,0.3585
3158.00,0.3585
3157.00,0.3586
3156.00,0.3586
3155.00,0.3587
3154.00,0.3587
3153.00,0.3588
3152.00,0.3588
3151.00,0.3588
3150.00,0.3589
3149.00,0.3589
3148.00,0.3590
3147.00,0.3591
3146.00,0.3592
3145.00,0.3592
3144.00,0.3593
3143.00,0.3593
3142.00,0.3594
3141.00,0.3594
3140.00,0.3595
3139.00,0.3596
3138.00,0.3597
3137.00,0.3597
3136.00,0.3598
3135.00,0.3599
3134.00,0.3600
3133.00,0.3601
3132.00,0.3601
3131.00,0.3602
3130.00,0.3603
3129.00,0.3603
3128.00,0.3604
3127.00,0.3605
3126.00,0.3606
3125.00,0.3607
3124.00,0.3607
3123.00,0.3608
3122.00,0.3609
3121.00,0.3610
3120.00,0.3610
3119.00,0.3611
3118.00,0.3611
3117.00,0.3612
3116.00,0.3612
3115.00,0.3613
3114.00,0.3614
3113.00,0.3614
3112.00,0.3615
3111.00,0.3615
3110.00,0.3615
3109.00,0.3615
3108.00,0.3616
3107.00,0.3616
3106.00,0.3617
3105.00,0.3617
3104.00,0.3618
3103.00,0.3618
3102.00,0.3618
3101.00,0.3618
3100.00,0.3618
3099.00,0.3618
3098.00,0.3619
3097.00,0.3619
3096.00,0.3619
3095.00,0.3620
3094.00,0.3620
3093.00,0.3621
3092.00,0.3621
3091.00,0.3621
3090.00,0.3621
3089.00,0.3621
3088.00,0.3621
3087.00,0.3622
3086.00,0.3622
3085.00,0.3623
3084.00,0.3624
3083.00,0.3625
3082.00,0.3625
3081.00,0.3626
3080.00,0.3626
3079.00,0.3626
3078.00,0.3627
3077.00,0.3627
3076.00,0.3628
3075.00,0.3628
3074.00,0.3629
3073.00,0.3630
3072.00,0.3631
3071.00,0.3632
3070.00,0.3633
3069.00,0.3634
3068.00,0.3634
3067.00,0.3635
3066.00,0.3636
3065.00,0.3637
3064.00,0.3638
3063.00,0.3639
3062.00,0.3641
3061.00,0.3641
3060.00,0.3642
3059.00,0.3643
3058.00,0.3644
3057.00,0.3645
3056.00,0.3646
3055.00,0.3648
3054.00,0.3649
3053.00,0.3650
3052.00,0.3652
3051.00,0.3653
3050.00,0.3654
3049.00,0.3654
3048.00,0.3655
3047.00,0.3657
3046.00,0.3658
3045.00,0.3660
3044.00,0.3661
3043.00,0.3663
3042.00,0.3665
3041.00,0.3667
3040.00,0.3668
3039.00,0.3670
3038.00,0.3672
3037.00,0.3673
3036.00,0.3675
3035.00,0.3677
3034.00,0.3679
3033.00,0.3682
3032.00,0.3684
3031.00,0.3687
3030.00,0.3690
3029.00,0.3693
3028.00,0.3696
3027.00,0.3699
3026.00,0.3702
3025.00,0.3705
3024.00,0.3709
3023.00,0.3713
3022.00,0.3718
3021.00,0.3722
3020.00,0.3727
3019.00,0.3733
3018.00,0.3739
3017.00,0.3745
3016.00,0.3752
3015.00,0.3759
3014.00,0.3766
3013.00,0.3774
3012.00,0.3782
3011.00,0.3790
3010.00,0.3799
3009.00,0.3808
3008.00,0.3818
3007.00,0.3829
3006.00,0.3841
3005.00,0.3854
3004.00,0.3868
3003.00,0.3884
3002.00,0.3901
3001.00,0.3921
3000.00,0.3942
2999.00,0.3965
2998.00,0.3990
2997.00,0.4018
2996.00,0.4049
2995.00,0.4083
2994.00,0.4122
2993.00,0.4164
2992.00,0.4211
2991.00,0.4262
2990.00,0.4319
2989.00,0.4381
2988.00,0.4449
2987.00,0.4522
2986.00,0.4601
2985.00,0.4686
2984.00,0.4775
2983.00,0.4869
2982.00,0.4965
2981.00,0.5064
2980.00,0.5162
2979.00,0.5259
2978.00,0.5353
2977.00,0.5441
2976.00,0.5523
2975.00,0.5597
2974.00,0.5661
2973.00,0.5713
2972.00,0.5753
2971.00,0.5778
2970.00,0.5789
2969.00,0.5784
2968.00,0.5762
2967.00,0.5725
2966.00,0.5673
2965.00,0.5605
2964.00,0.5523
2963.00,0.5429
2962.00,0.5324
2961.00,0.5210
2960.00,0.5092
2959.00,0.4973
2958.00,0.4857
2957.00,0.4747
2956.00,0.4647
2955.00,0.4557
2954.00,0.4480
2953.00,0.4414
2952.00,0.4361
2951.00,0.4318
2950.00,0.4285
2949.00,0.4260
2948.00,0.4244
2947.00,0.4233
2946.00,0.4229
2945.00,0.4228
2944.00,0.4231
2943.00,0.4237
2942.00,0.4244
2941.00,0.4251
2940.00,0.4259
2939.00,0.4266
2938.00,0.4273
2937.00,0.4281
2936.00,0.4291
2935.00,0.4302
2934.00,0.4314
2933.00,0.4329
2932.00,0.4344
2931.00,0.4358
2930.00,0.4369
2929.00,0.4375
2928.00,0.4373
2927.00,0.4365
2926.00,0.4350
2925.00,0.4332
2924.00,0.4314
2923.00,0.4297
2922.00,0.4284
2921.00,0.4274
2920.00,0.4269
2919.00,0.4266
2918.00,0.4267
2917.00,0.4270
2916.00,0.4275
2915.00,0.4281
2914.00,0.4286
2913.00,0.4291
2912.00,0.4295
2911.00,0.4297
2910.00,0.4297
2909.00,0.4294
2908.00,0.4289
2907.00,0.4282
2906.00,0.4273
2905.00,0.4263
2904.00,0.4252
2903.00,0.4241
2902.00,0.4230
2901.00,0.4219
2900.00,0.4208
2899.00,0.4198
2898.00,0.4187
2897.00,0.4175
2896.00,0.4164
2895.00,0.4154
2894.00,0.4146
2893.00,0.4139
2892.00,0.4133
2891.00,0.4131
2890.00,0.4129
2889.00,0.4129
2888.00,0.4130
2887.00,0.4130
2886.00,0.4129
2885.00,0.4127
2884.00,0.4122
2883.00,0.4116
2882.00,0.4107
2881.00,0.4096
2880.00,0.4083
2879.00,0.4068
2878.00,0.4052
2877.00,0.4036
2876.00,0.4019
2875.00,0.4003
2874.00,0.3986
2873.00,0.3970
2872.00,0.3954
2871.00,0.3939
2870.00,0.3924
2869.00,0.3908
2868.00,0.3892
2867.00,0.3876
2866.00,0.3860
2865.00,0.3844
2864.00,0.3829
2863.00,0.3816
2862.00,0.3804
2861.00,0.3793
2860.00,0.3783
2859.00,0.3775
2858.00,0.3767
2857.00,0.3759
2856.00,0.3751
2855.00,0.3744
2854.00,0.3737
2853.00,0.3730
2852.00,0.3723
2851.00,0.3717
2850.00,0.3711
2849.00,0.3706
2848.00,0.3702
2847.00,0.3697
2846.00,0.3694
2845.00,0.3691
2844.00,0.3689
2843.00,0.3686
2842.00,0.3683
2841.00,0.3679
2840.00,0.3673
2839.00,0.3665
2838.00,0.3655
2837.00,0.3644
2836.00,0.3631
2835.00,0.3619
2834.00,0.3607
2833.00,0.3595
2832.00,0.3585
2831.00,0.3576
2830.00,0.3569
2829.00,0.3563
2828.00,0.3557
2827.00,0.3553
2826.00,0.3550
2825.00,0.3547
2824.00,0.3545
2823.00,0.3543
2822.00,0.3541
2821.00,0.3540
2820.00,0.3539
2819.00,0.3538
2818.00,0.3537
2817.00,0.3536
2816.00,0.3534
2815.00,0.3533
2814.00,0.3531
2813.00,0.3528
2812.00,0.3526
2811.00,0.3524
2810.00,0.3522
2809.00,0.3521
2808.00,0.3519
2807.00,0.3518
2806.00,0.3517
2805.00,0.3515
2804.00,0.3514
2803.00,0.3512
2802.00,0.3511
2801.00,0.3509
2800.00,0.3506
2799.00,0.3504
2798.00,0.3502
2797.00,0.3500
2796.00,0.3497
2795.00,0.3495
2794.00,0.3492
2793.00,0.3490
2792.00,0.3487
2791.00,0.3484
2790.00,0.3481
2789.00,0.3479
2788.00,0.3477
2787.00,0.3474
2786.00,0.3472
2785.00,0.3471
2784.00,0.3469
2783.00,0.3467
2782.00,0.3466
2781.00,0.3464
2780.00,0.3463
2779.00,0.3462
2778.00,0.3462
2777.00,0.3462
2776.00,0.3462
2775.00,0.3462
2774.00,0.3463
2773.00,0.3463
2772.00,0.3464
2771.00,0.3464
2770.00,0.3464
2769.00,0.3464
2768.00,0.3464
2767.00,0.3463
2766.00,0.3462
2765.00,0.3462
2764.00,0.3460
2763.00,0.3459
2762.00,0.3457
2761.00,0.3456
2760.00,0.3454
2759.00,0.3453
2758.00,0.3452
2757.00,0.3451
2756.00,0.3450
2755.00,0.3450
2754.00,0.3450
2753.00,0.3450
2752.00,0.3450
2751.00,0.3451
2750.00,0.3451
2749.00,0.3452
2748.00,0.3453
2747.00,0.3455
2746.00,0.3457
2745.00,0.3459
2744.00,0.3461
2743.00,0.3463
2742.00,0.3465
2741.00,0.3467
2740.00,0.3468
2739.00,0.3468
2738.00,0.3468
2737.00,0.3467
2736.00,0.3466
2735.00,0.3464
2734.00,0.3461
2733.00,0.3458
2732.00,0.3455
2731.00,0.3451
2730.00,0.3448
2729.00,0.3444
2728.00,0.3441
2727.00,0.3438
2726.00,0.3436
2725.00,0.3434
2724.00,0.3432
2723.00,0.3431
2722.00,0.3430
2721.00,0.3430
2720.00,0.3429
2719.00,0.3429
2718.00,0.3428
2717.00,0.3427
2716.00,0.3425
2715.00,0.3423
2714.00,0.3421
2713.00,0.3419
2712.00,0.3418
2711.00,0.3416
2710.00,0.3415
2709.00,0.3414
2708.00,0.3413
2707.00,0.3412
2706.00,0.3411
2705.00,0.3411
2704.00,0.3411
2703.00,0.3410
2702.00,0.3410
2701.00,0.3410
2700.00,0.3410
2699.00,0.3409
2698.00,0.3409
2697.00,0.3409
2696.00,0.3408
2695.00,0.3409
2694.00,0.3409
2693.00,0.3409
2692.00,0.3409
2691.00,0.3410
2690.00,0.3410
2689.00,0.3410
2688.00,0.3410
2687.00,0.3410
2686.00,0.3411
2685.00,0.3411
2684.00,0.3411
2683.00,0.3412
2682.00,0.3412
2681.00,0.3413
2680.00,0.3413
2679.00,0.3414
2678.00,0.3414
2677.00,0.3415
2676.00,0.3415
2675.00,0.3415
2674.00,0.3415
2673.00,0.3415
2672.00,0.3415
2671.00,0.3415
2670.00,0.3415
2669.00,0.3414
2668.00,0.3413
2667.00,0.3413
2666.00,0.3412
2665.00,0.3412
2664.00,0.3411
2663.00,0.3411
2662.00,0.3411
2661.00,0.3410
2660.00,0.3410
2659.00,0.3409
2658.00,0.3408
2657.00,0.3408
2656.00,0.3407
2655.00,0.3406
2654.00,0.3406
2653.00,0.3406
2652.00,0.3405
2651.00,0.3405
2650.00,0.3405
2649.00,0.3404
2648.00,0.3404
2647.00,0.3403
2646.00,0.3403
2645.00,0.3402
2644.00,0.3402
2643.00,0.3402
2642.00,0.3402
2641.00,0.3402
2640.00,0.3402
2639.00,0.3401
2638.00,0.3401
2637.00,0.3401
2636.00,0.3401
2635.00,0.3400
2634.00,0.3400
2633.00,0.3400
2632.00,0.3399
2631.00,0.3399
2630.00,0.3399
2629.00,0.3399
2628.00,0.3398
2627.00,0.3398
2626.00,0.3397
2625.00,0.3397
2624.00,0.3396
2623.00,0.3396
2622.00,0.3396
2621.00,0.3395
2620.00,0.3395
2619.00,0.3395
2618.00,0.3394
2617.00,0.3394
2616.00,0.3393
2615.00,0.3393
2614.00,0.3393
2613.00,0.3392
2612.00,0.3392
2611.00,0.3392
2610.00,0.3392
2609.00,0.3392
2608.00,0.3392
2607.00,0.3392
2606.00,0.3391
2605.00,0.3391
2604.00,0.3391
2603.00,0.3390
2602.00,0.3390
2601.00,0.3390
2600.00,0.3390
2599.00,0.3390
2598.00,0.3390
2597.00,0.3390
2596.00,0.3390
2595.00,0.3390
2594.00,0.3390
2593.00,0.3390
2592.00,0.3390
2591.00,0.3390
2590.00,0.3390
2589.00,0.3390
2588.00,0.3390
2587.00,0.3390
2586.00,0.3391
2585.00,0.3391
2584.00,0.3391
2583.00,0.3390
2582.00,0.3391
2581.00,0.3391
2580.00,0.3391
2579.00,0.3391
2578.00,0.3391
2577.00,0.3391
2576.00,0.3391
2575.00,0.3391
2574.00,0.3390
2573.00,0.3390
2572.00,0.3390
2571.00,0.3390
2570.00,0.3390
2569.00,0.3390
2568.00,0.3390
2567.00,0.3390
2566.00,0.3390
2565.00,0.3390
2564.00,0.3389
2563.00,0.3389
2562.00,0.3389
2561.00,0.3389
2560.00,0.3389
2559.00,0.3389
2558.00,0.3389
2557.00,0.3389
2556.00,0.3389
2555.00,0.3389
2554.00,0.3389
2553.00,0.3388
2552.00,0.3388
2551.00,0.3388
2550.00,0.3388
2549.00,0.3388
2548.00,0.3388
2547.00,0.3388
2546.00,0.3388
2545.00,0.3388
2544.00,0.3388
2543.00,0.3388
2542.00,0.3388
2541.00,0.3388
2540.00,0.3388
2539.00,0.3388
2538.00,0.3388
2537.00,0.3388
2536.00,0.3388
2535.00,0.3388
2534.00,0.3389
2533.00,0.3389
2532.00,0.3389
2531.00,0.3389
2530.00,0.3390
2529.00,0.3390
2528.00,0.3390
2527.00,0.3391
2526.00,0.3391
2525.00,0.3392
2524.00,0.3392
2523.00,0.3392
2522.00,0.3392
2521.00,0.3393
2520.00,0.3393
2519.00,0.3394
2518.00,0.3394
2517.00,0.3394
2516.00,0.3394
2515.00,0.3394
2514.00,0.3394
2513.00,0.3394
2512.00,0.3394
2511.00,0.3393
2510.00,0.3393
2509.00,0.3393
2508.00,0.3394
2507.00,0.3394
2506.00,0.3394
2505.00,0.3395
2504.00,0.3395
2503.00,0.3395
2502.00,0.3394
2501.00,0.3394
2500.00,0.3394
2499.00,0.3393
2498.00,0.3393
2497.00,0.3392
2496.00,0.3392
2495.00,0.3391
2494.00,0.3391
2493.00,0.3390
2492.00,0.3390
2491.00,0.3389
2490.00,0.3389
2489.00,0.3388
2488.00,0.3388
2487.00,0.3388
2486.00,0.3388
2485.00,0.3388
2484.00,0.3388
2483.00,0.3387
2482.00,0.3387
2481.00,0.3387
2480.00,0.3387
2479.00,0.3387
2478.00,0.3387
2477.00,0.3387
2476.00,0.3387
2475.00,0.3387
2474.00,0.3388
2473.00,0.3387
2472.00,0.3387
2471.00,0.3387
2470.00,0.3387
2469.00,0.3387
2468.00,0.3387
2467.00,0.3387
2466.00,0.3388
2465.00,0.3388
2464.00,0.3388
2463.00,0.3389
2462.00,0.3389
2461.00,0.3389
2460.00,0.3389
2459.00,0.3389
2458.00,0.3389
2457.00,0.3389
2456.00,0.3389
2455.00,0.3389
2454.00,0.3389
2453.00,0.3389
2452.00,0.3389
2451.00,0.3389
2450.00,0.3389
2449.00,0.3389
2448.00,0.3389
2447.00,0.3388
2446.00,0.3388
2445.00,0.3388
2444.00,0.3388
2443.00,0.3388
2442.00,0.3388
2441.00,0.3387
2440.00,0.3387
2439.00,0.3387
2438.00,0.3386
2437.00,0.3386
2436.00,0.3386
2435.00,0.3386
2434.00,0.3386
2433.00,0.3386
2432.00,0.3386
2431.00,0.3385
2430.00,0.3385
2429.00,0.3385
2428.00,0.3385
2427.00,0.3385
2426.00,0.3385
2425.00,0.3385
2424.00,0.3385
2423.00,0.3385
2422.00,0.3385
2421.00,0.3384
2420.00,0.3384
2419.00,0.3384
2418.00,0.3384
2417.00,0.3384
2416.00,0.3383
2415.00,0.3384
2414.00,0.3384
2413.00,0.3384
2412.00,0.3384
2411.00,0.3384
2410.00,0.3384
2409.00,0.3384
2408.00,0.3384
2407.00,0.3383
2406.00,0.3384
2405.00,0.3384
2404.00,0.3384
2403.00,0.3384
2402.00,0.3384
2401.00,0.3384
2400.00,0.3384
2399.00,0.3384
2398.00,0.3384
2397.00,0.3384
2396.00,0.3384
2395.00,0.3384
2394.00,0.3384
2393.00,0.3383
2392.00,0.3383
2391.00,0.3382
2390.00,0.3381
2389.00,0.3379
2388.00,0.3378
2387.00,0.3376
2386.00,0.3375
2385.00,0.3374
2384.00,0.3375
2383.00,0.3376
2382.00,0.3379
2381.00,0.3383
2380.00,0.3387
2379.00,0.3391
2378.00,0.3394
2377.00,0.3396
2376.00,0.3397
2375.00,0.3396
2374.00,0.3395
2373.00,0.3394
2372.00,0.3393
2371.00,0.3392
2370.00,0.3392
2369.00,0.3393
2368.00,0.3395
2367.00,0.3397
2366.00,0.3401
2365.00,0.3406
2364.00,0.3411
2363.00,0.3418
2362.00,0.3425
2361.00,0.3433
2360.00,0.3441
2359.00,0.3447
2358.00,0.3449
2357.00,0.3446
2356.00,0.3435
2355.00,0.3423
2354.00,0.3418
2353.00,0.3427
2352.00,0.3445
2351.00,0.3459
2350.00,0.3456
2349.00,0.3437
2348.00,0.3412
2347.00,0.3395
2346.00,0.3391
2345.00,0.3395
2344.00,0.3401
2343.00,0.3406
2342.00,0.3409
2341.00,0.3413
2340.00,0.3415
2339.00,0.3416
2338.00,0.3418
2337.00,0.3419
2336.00,0.3420
2335.00,0.3420
2334.00,0.3420
2333.00,0.3419
2332.00,0.3419
2331.00,0.3420
2330.00,0.3423
2329.00,0.3426
2328.00,0.3426
2327.00,0.3425
2326.00,0.3423
2325.00,0.3422
2324.00,0.3421
2323.00,0.3420
2322.00,0.3419
2321.00,0.3418
2320.00,0.3416
2319.00,0.3414
2318.00,0.3411
2317.00,0.3407
2316.00,0.3403
2315.00,0.3400
2314.00,0.3398
2313.00,0.3397
2312.00,0.3396
2311.00,0.3396
2310.00,0.3396
2309.00,0.3396
2308.00,0.3395
2307.00,0.3395
2306.00,0.3395
2305.00,0.3394
2304.00,0.3394
2303.00,0.3395
2302.00,0.3395
2301.00,0.3396
2300.00,0.3396
2299.00,0.3397
2298.00,0.3397
2297.00,0.3398
2296.00,0.3398
2295.00,0.3398
2294.00,0.3399
2293.00,0.3399
2292.00,0.3400
2291.00,0.3400
2290.00,0.3400
2289.00,0.3401
2288.00,0.3401
2287.00,0.3401
2286.00,0.3402
2285.00,0.3402
2284.00,0.3402
2283.00,0.3402
2282.00,0.3402
2281.00,0.3402
2280.00,0.3402
2279.00,0.3402
2278.00,0.3403
2277.00,0.3403
2276.00,0.3403
2275.00,0.3404
2274.00,0.3404
2273.00,0.3404
2272.00,0.3404
2271.00,0.3405
2270.00,0.3405
2269.00,0.3406
2268.00,0.3406
2267.00,0.3406
2266.00,0.3406
2265.00,0.3407
2264.00,0.3407
2263.00,0.3407
2262.00,0.3408
2261.00,0.3408
2260.00,0.3408
2259.00,0.3409
2258.00,0.3409
2257.00,0.3409
2256.00,0.3409
2255.00,0.3409
2254.00,0.3410
2253.00,0.3410
2252.00,0.3410
2251.00,0.3411
2250.00,0.3411
2249.00,0.3411
2248.00,0.3412
2247.00,0.3412
2246.00,0.3412
2245.00,0.3412
2244.00,0.3412
2243.00,0.3412
2242.00,0.3412
2241.00,0.3412
2240.00,0.3413
2239.00,0.3413
2238.00,0.3413
2237.00,0.3414
2236.00,0.3414
2235.00,0.3414
2234.00,0.3414
2233.00,0.3415
2232.00,0.3415
2231.00,0.3415
2230.00,0.3415
2229.00,0.3416
2228.00,0.3416
2227.00,0.3417
2226.00,0.3417
2225.00,0.3417
2224.00,0.3417
2223.00,0.3417
2222.00,0.3418
2221.00,0.3418
2220.00,0.3419
2219.00,0.3419
2218.00,0.3420
2217.00,0.3420
2216.00,0.3420
2215.00,0.3421
2214.00,0.3421
2213.00,0.3421
2212.00,0.3421
2211.00,0.3422
2210.00,0.3422
2209.00,0.3423
2208.00,0.3424
2207.00,0.3424
2206.00,0.3425
2205.00,0.3425
2204.00,0.3425
2203.00,0.3426
2202.00,0.3426
2201.00,0.3426
2200.00,0.3427
2199.00,0.3427
2198.00,0.3428
2197.00,0.3428
2196.00,0.3429
2195.00,0.3429
2194.00,0.3430
2193.00,0.3430
2192.00,0.3431
2191.00,0.3431
2190.00,0.3431
2189.00,0.3432
2188.00,0.3432
2187.00,0.3432
2186.00,0.3433
2185.00,0.3433
2184.00,0.3433
2183.00,0.3434
2182.00,0.3434
2181.00,0.3434
2180.00,0.3434
2179.00,0.3434
2178.00,0.3435
2177.00,0.3435
2176.00,0.3435
2175.00,0.3435
2174.00,0.3435
2173.00,0.3435
2172.00,0.3435
2171.00,0.3435
2170.00,0.3435
2169.00,0.3435
2168.00,0.3436
2167.00,0.3436
2166.00,0.3436
2165.00,0.3436
2164.00,0.3436
2163.00,0.3435
2162.00,0.3435
2161.00,0.3435
2160.00,0.3435
2159.00,0.3435
2158.00,0.3435
2157.00,0.3435
2156.00,0.3436
2155.00,0.3436
2154.00,0.3436
2153.00,0.3436
2152.00,0.3436
2151.00,0.3436
2150.00,0.3436
2149.00,0.3436
2148.00,0.3436
2147.00,0.3436
2146.00,0.3437
2145.00,0.3437
2144.00,0.3437
2143.00,0.3437
2142.00,0.3437
2141.00,0.3438
2140.00,0.3438
2139.00,0.3438
2138.00,0.3438
2137.00,0.3439
2136.00,0.3439
2135.00,0.3439
2134.00,0.3440
2133.00,0.3440
2132.00,0.3440
2131.00,0.3440
2130.00,0.3440
2129.00,0.3441
2128.00,0.3441
2127.00,0.3441
2126.00,0.3442
2125.00,0.3442
2124.00,0.3443
2123.00,0.3443
2122.00,0.3443
2121.00,0.3443
2120.00,0.3443
2119.00,0.3443
2118.00,0.3443
2117.00,0.3443
2116.00,0.3444
2115.00,0.3444
2114.00,0.3444
2113.00,0.3444
2112.00,0.3444
2111.00,0.3444
2110.00,0.3444
2109.00,0.3444
2108.00,0.3444
2107.00,0.3444
2106.00,0.3445
2105.00,0.3445
2104.00,0.3445
2103.00,0.3446
2102.00,0.3446
2101.00,0.3446
2100.00,0.3446
2099.00,0.3446
2098.00,0.3446
2097.00,0.3446
2096.00,0.3446
2095.00,0.3446
2094.00,0.3446
2093.00,0.3446
2092.00,0.3446
2091.00,0.3446
2090.00,0.3446
2089.00,0.3446
2088.00,0.3446
2087.00,0.3446
2086.00,0.3446
2085.00,0.3447
2084.00,0.3447
2083.00,0.3447
2082.00,0.3447
2081.00,0.3448
2080.00,0.3448
2079.00,0.3448
2078.00,0.3448
2077.00,0.3448
2076.00,0.3449
2075.00,0.3449
2074.00,0.3450
2073.00,0.3451
2072.00,0.3451
2071.00,0.3452
2070.00,0.3452
2069.00,0.3453
2068.00,0.3453
2067.00,0.3454
2066.00,0.3455
2065.00,0.3455
2064.00,0.3456
2063.00,0.3456
2062.00,0.3457
2061.00,0.3458
2060.00,0.3458
2059.00,0.3459
2058.00,0.3459
2057.00,0.3459
2056.00,0.3460
2055.00,0.3460
2054.00,0.3460
2053.00,0.3460
2052.00,0.3460
2051.00,0.3460
2050.00,0.3460
2049.00,0.3460
2048.00,0.3459
2047.00,0.3459
2046.00,0.3459
2045.00,0.3459
2044.00,0.3460
2043.00,0.3460
2042.00,0.3460
2041.00,0.3460
2040.00,0.3460
2039.00,0.3460
2038.00,0.3460
2037.00,0.3461
2036.00,0.3461
2035.00,0.3461
2034.00,0.3462
2033.00,0.3463
2032.00,0.3463
2031.00,0.3463
2030.00,0.3464
2029.00,0.3464
2028.00,0.3464
2027.00,0.3464
2026.00,0.3465
2025.00,0.3465
2024.00,0.3465
2023.00,0.3465
2022.00,0.3466
2021.00,0.3466
2020.00,0.3467
2019.00,0.3467
2018.00,0.3466
2017.00,0.3465
2016.00,0.3465
2015.00,0.3464
2014.00,0.3465
2013.00,0.3465
2012.00,0.3465
2011.00,0.3465
2010.00,0.3465
2009.00,0.3465
2008.00,0.3465
2007.00,0.3464
2006.00,0.3464
2005.00,0.3465
2004.00,0.3465
2003.00,0.3465
2002.00,0.3465
2001.00,0.3466
2000.00,0.3466
1999.00,0.3466
1998.00,0.3465
1997.00,0.3466
1996.00,0.3466
1995.00,0.3467
1994.00,0.3468
1993.00,0.3468
1992.00,0.3467
1991.00,0.3466
1990.00,0.3467
1989.00,0.3467
1988.00,0.3468
1987.00,0.3468
1986.00,0.3468
1985.00,0.3469
1984.00,0.3469
1983.00,0.3470
1982.00,0.3471
1981.00,0.3471
1980.00,0.3472
1979.00,0.3473
1978.00,0.3473
1977.00,0.3474
1976.00,0.3474
1975.00,0.3474
1974.00,0.3475
1973.00,0.3476
1972.00,0.3477
1971.00,0.3478
1970.00,0.3480
1969.00,0.3481
1968.00,0.3481
1967.00,0.3481
1966.00,0.3481
1965.00,0.3481
1964.00,0.3482
1963.00,0.3484
1962.00,0.3485
1961.00,0.3485
1960.00,0.3486
1959.00,0.3487
1958.00,0.3488
1957.00,0.3489
1956.00,0.3489
1955.00,0.3489
1954.00,0.3490
1953.00,0.3490
1952.00,0.3491
1951.00,0.3491
1950.00,0.3492
1949.00,0.3493
1948.00,0.3493
1947.00,0.3493
1946.00,0.3493
1945.00,0.3493
1944.00,0.3492
1943.00,0.3490
1942.00,0.3487
1941.00,0.3486
1940.00,0.3485
1939.00,0.3485
1938.00,0.3485
1937.00,0.3484
1936.00,0.3483
1935.00,0.3482
1934.00,0.3481
1933.00,0.3480
1932.00,0.3480
1931.00,0.3479
1930.00,0.3479
1929.00,0.3479
1928.00,0.3479
1927.00,0.3479
1926.00,0.3479
1925.00,0.3480
1924.00,0.3480
1923.00,0.3478
1922.00,0.3476
1921.00,0.3477
1920.00,0.3478
1919.00,0.3477
1918.00,0.3476
1917.00,0.3476
1916.00,0.3476
1915.00,0.3477
1914.00,0.3478
1913.00,0.3479
1912.00,0.3479
1911.00,0.3479
1910.00,0.3479
1909.00,0.3479
1908.00,0.3478
1907.00,0.3478
1906.00,0.3478
1905.00,0.3479
1904.00,0.3480
1903.00,0.3479
1902.00,0.3480
1901.00,0.3481
1900.00,0.3482
1899.00,0.3482
1898.00,0.3484
1897.00,0.3485
1896.00,0.3485
1895.00,0.3484
1894.00,0.3484
1893.00,0.3486
1892.00,0.3487
1891.00,0.3488
1890.00,0.3487
1889.00,0.3486
1888.00,0.3486
1887.00,0.3487
1886.00,0.3488
1885.00,0.3489
1884.00,0.3490
1883.00,0.3489
1882.00,0.3489
1881.00,0.3490
1880.00,0.3490
1879.00,0.3490
1878.00,0.3490
1877.00,0.3491
1876.00,0.3491
1875.00,0.3491
1874.00,0.3491
1873.00,0.3493
1872.00,0.3495
1871.00,0.3495
1870.00,0.3495
1869.00,0.3493
1868.00,0.3491
1867.00,0.3490
1866.00,0.3490
1865.00,0.3492
1864.00,0.3493
1863.00,0.3494
1862.00,0.3494
1861.00,0.3495
1860.00,0.3496
1859.00,0.3496
1858.00,0.3496
1857.00,0.3498
1856.00,0.3499
1855.00,0.3499
1854.00,0.3499
1853.00,0.3500
1852.00,0.3501
1851.00,0.3501
1850.00,0.3503
1849.00,0.3504
1848.00,0.3505
1847.00,0.3505
1846.00,0.3506
1845.00,0.3505
1844.00,0.3504
1843.00,0.3504
1842.00,0.3506
1841.00,0.3507
1840.00,0.3508
1839.00,0.3509
1838.00,0.3509
1837.00,0.3510
1836.00,0.3510
1835.00,0.3510
1834.00,0.3511
1833.00,0.3514
1832.00,0.3515
1831.00,0.3515
1830.00,0.3513
1829.00,0.3512
1828.00,0.3513
1827.00,0.3514
1826.00,0.3516
1825.00,0.3516
1824.00,0.3516
1823.00,0.3517
1822.00,0.3518
1821.00,0.3520
1820.00,0.3522
1819.00,0.3522
1818.00,0.3523
1817.00,0.3524
1816.00,0.3526
1815.00,0.3527
1814.00,0.3528
1813.00,0.3530
1812.00,0.3531
1811.00,0.3530
1810.00,0.3529
1809.00,0.3530
1808.00,0.3532
1807.00,0.3533
1806.00,0.3534
1805.00,0.3536
1804.00,0.3538
1803.00,0.3539
1802.00,0.3538
1801.00,0.3538
1800.00,0.3538
1799.00,0.3538
1798.00,0.3539
1797.00,0.3541
1796.00,0.3542
1795.00,0.3542
1794.00,0.3542
1793.00,0.3543
1792.00,0.3543
1791.00,0.3542
1790.00,0.3542
1789.00,0.3543
1788.00,0.3544
1787.00,0.3545
1786.00,0.3545
1785.00,0.3546
1784.00,0.3546
1783.00,0.3547
1782.00,0.3547
1781.00,0.3546
1780.00,0.3546
1779.00,0.3545
1778.00,0.3547
1777.00,0.3548
1776.00,0.3549
1775.00,0.3549
1774.00,0.3550
1773.00,0.3550
1772.00,0.3550
1771.00,0.3551
1770.00,0.3549
1769.00,0.3548
1768.00,0.3549
1767.00,0.3551
1766.00,0.3552
1765.00,0.3553
1764.00,0.3555
1763.00,0.3556
1762.00,0.3555
1761.00,0.3554
1760.00,0.3556
1759.00,0.3557
1758.00,0.3557
1757.00,0.3556
1756.00,0.3556
1755.00,0.3558
1754.00,0.3559
1753.00,0.3560
1752.00,0.3563
1751.00,0.3566
1750.00,0.3567
1749.00,0.3566
1748.00,0.3565
1747.00,0.3565
1746.00,0.3567
1745.00,0.3569
1744.00,0.3570
1743.00,0.3570
1742.00,0.3570
1741.00,0.3571
1740.00,0.3573
1739.00,0.3575
1738.00,0.3575
1737.00,0.3575
1736.00,0.3577
1735.00,0.3578
1734.00,0.3581
1733.00,0.3587
1732.00,0.3591
1731.00,0.3589
1730.00,0.3586
1729.00,0.3584
1728.00,0.3585
1727.00,0.3587
1726.00,0.3590
1725.00,0.3592
1724.00,0.3594
1723.00,0.3594
1722.00,0.3595
1721.00,0.3597
1720.00,0.3600
1719.00,0.3600
1718.00,0.3598
1717.00,0.3601
1716.00,0.3605
1715.00,0.3604
1714.00,0.3602
1713.00,0.3604
1712.00,0.3606
1711.00,0.3606
1710.00,0.3606
1709.00,0.3609
1708.00,0.3612
1707.00,0.3612
1706.00,0.3611
1705.00,0.3612
1704.00,0.3612
1703.00,0.3611
1702.00,0.3613
1701.00,0.3617
1700.00,0.3621
1699.00,0.3625
1698.00,0.3625
1697.00,0.3626
1696.00,0.3629
1695.00,0.3634
1694.00,0.3640
1693.00,0.3641
1692.00,0.3641
1691.00,0.3642
1690.00,0.3644
1689.00,0.3645
1688.00,0.3646
1687.00,0.3650
1686.00,0.3657
1685.00,0.3662
1684.00,0.3664
1683.00,0.3670
1682.00,0.3674
1681.00,0.3673
1680.00,0.3673
1679.00,0.3676
1678.00,0.3680
1677.00,0.3683
1676.00,0.3687
1675.00,0.3694
1674.00,0.3702
1673.00,0.3706
1672.00,0.3709
1671.00,0.3713
1670.00,0.3717
1669.00,0.3721
1668.00,0.3726
1667.00,0.3732
1666.00,0.3737
1665.00,0.3741
1664.00,0.3745
1663.00,0.3750
1662.00,0.3756
1661.00,0.3761
1660.00,0.3766
1659.00,0.3773
1658.00,0.3780
1657.00,0.3784
1656.00,0.3789
1655.00,0.3797
1654.00,0.3799
1653.00,0.3804
1652.00,0.3826
1651.00,0.3838
1650.00,0.3835
1649.00,0.3831
1648.00,0.3829
1647.00,0.3829
1646.00,0.3833
1645.00,0.3842
1644.00,0.3849
1643.00,0.3852
1642.00,0.3854
1641.00,0.3857
1640.00,0.3861
1639.00,0.3863
1638.00,0.3864
1637.00,0.3864
1636.00,0.3863
1635.00,0.3867
1634.00,0.3873
1633.00,0.3875
1632.00,0.3873
1631.00,0.3872
1630.00,0.3872
1629.00,0.3872
1628.00,0.3870
1627.00,0.3868
1626.00,0.3867
1625.00,0.3865
1624.00,0.3863
1623.00,0.3861
1622.00,0.3861
1621.00,0.3859
1620.00,0.3856
1619.00,0.3854
1618.00,0.3855
1617.00,0.3855
1616.00,0.3856
1615.00,0.3858
1614.00,0.3857
1613.00,0.3854
1612.00,0.3852
1611.00,0.3854
1610.00,0.3857
1609.00,0.3860
1608.00,0.3862
1607.00,0.3866
1606.00,0.3871
1605.00,0.3874
1604.00,0.3877
1603.00,0.3882
1602.00,0.3887
1601.00,0.3891
1600.00,0.3895
1599.00,0.3900
1598.00,0.3906
1597.00,0.3910
1596.00,0.3913
1595.00,0.3918
1594.00,0.3922
1593.00,0.3926
1592.00,0.3929
1591.00,0.3934
1590.00,0.3939
1589.00,0.3942
1588.00,0.3945
1587.00,0.3949
1586.00,0.3953
1585.00,0.3956
1584.00,0.3958
1583.00,0.3963
1582.00,0.3968
1581.00,0.3971
1580.00,0.3973
1579.00,0.3976
1578.00,0.3980
1577.00,0.3983
1576.00,0.3989
1575.00,0.3999
1574.00,0.4004
1573.00,0.4002
1572.00,0.4002
1571.00,0.4005
1570.00,0.4009
1569.00,0.4010
1568.00,0.4012
1567.00,0.4017
1566.00,0.4020
1565.00,0.4020
1564.00,0.4018
1563.00,0.4018
1562.00,0.4020
1561.00,0.4022
1560.00,0.4018
1559.00,0.4007
1558.00,0.4002
1557.00,0.3997
1556.00,0.3986
1555.00,0.3975
1554.00,0.3967
1553.00,0.3958
1552.00,0.3950
1551.00,0.3942
1550.00,0.3932
1549.00,0.3922
1548.00,0.3913
1547.00,0.3908
1546.00,0.3904
1545.00,0.3896
1544.00,0.3886
1543.00,0.3876
1542.00,0.3868
1541.00,0.3859
1540.00,0.3851
1539.00,0.3850
1538.00,0.3850
1537.00,0.3843
1536.00,0.3832
1535.00,0.3824
1534.00,0.3817
1533.00,0.3809
1532.00,0.3803
1531.00,0.3799
1530.00,0.3795
1529.00,0.3792
1528.00,0.3788
1527.00,0.3783
1526.00,0.3778
1525.00,0.3774
1524.00,0.3771
1523.00,0.3769
1522.00,0.3767
1521.00,0.3766
1520.00,0.3766
1519.00,0.3766
1518.00,0.3763
1517.00,0.3760
1516.00,0.3758
1515.00,0.3757
1514.00,0.3757
1513.00,0.3760
1512.00,0.3765
1511.00,0.3767
1510.00,0.3767
1509.00,0.3768
1508.00,0.3768
1507.00,0.3764
1506.00,0.3768
1505.00,0.3780
1504.00,0.3786
1503.00,0.3783
1502.00,0.3780
1501.00,0.3778
1500.00,0.3779
1499.00,0.3780
1498.00,0.3782
1497.00,0.3790
1496.00,0.3804
1495.00,0.3819
1494.00,0.3831
1493.00,0.3842
1492.00,0.3852
1491.00,0.3861
1490.00,0.3866
1489.00,0.3871
1488.00,0.3876
1487.00,0.3881
1486.00,0.3886
1485.00,0.3891
1484.00,0.3891
1483.00,0.3887
1482.00,0.3880
1481.00,0.3872
1480.00,0.3863
1479.00,0.3856
1478.00,0.3851
1477.00,0.3848
1476.00,0.3844
1475.00,0.3840
1474.00,0.3840
1473.00,0.3842
1472.00,0.3845
1471.00,0.3848
1470.00,0.3849
1469.00,0.3851
1468.00,0.3852
1467.00,0.3852
1466.00,0.3854
1465.00,0.3855
1464.00,0.3859
1463.00,0.3863
1462.00,0.3867
1461.00,0.3872
1460.00,0.3877
1459.00,0.3883
1458.00,0.3887
1457.00,0.3894
1456.00,0.3908
1455.00,0.3920
1454.00,0.3923
1453.00,0.3926
1452.00,0.3935
1451.00,0.3948
1450.00,0.3964
1449.00,0.3980
1448.00,0.3996
1447.00,0.4010
1446.00,0.4018
1445.00,0.4021
1444.00,0.4020
1443.00,0.4014
1442.00,0.4002
1441.00,0.3986
1440.00,0.3971
1439.00,0.3959
1438.00,0.3948
1437.00,0.3939
1436.00,0.3936
1435.00,0.3937
1434.00,0.3936
1433.00,0.3935
1432.00,0.3939
1431.00,0.3946
1430.00,0.3952
1429.00,0.3959
1428.00,0.3971
1427.00,0.3985
1426.00,0.4000
1425.00,0.4016
1424.00,0.4036
1423.00,0.4058
1422.00,0.4080
1421.00,0.4105
1420.00,0.4137
1419.00,0.4174
1418.00,0.4209
1417.00,0.4240
1416.00,0.4269
1415.00,0.4297
1414.00,0.4320
1413.00,0.4338
1412.00,0.4352
1411.00,0.4363
1410.00,0.4367
1409.00,0.4367
1408.00,0.4366
1407.00,0.4364
1406.00,0.4359
1405.00,0.4353
1404.00,0.4348
1403.00,0.4344
1402.00,0.4338
1401.00,0.4332
1400.00,0.4327
1399.00,0.4324
1398.00,0.4322
1397.00,0.4324
1396.00,0.4328
1395.00,0.4335
1394.00,0.4340
1393.00,0.4337
1392.00,0.4325
1391.00,0.4303
1390.00,0.4271
1389.00,0.4233
1388.00,0.4193
1387.00,0.4157
1386.00,0.4126
1385.00,0.4099
1384.00,0.4074
1383.00,0.4048
1382.00,0.4022
1381.00,0.3996
1380.00,0.3972
1379.00,0.3953
1378.00,0.3937
1377.00,0.3923
1376.00,0.3912
1375.00,0.3902
1374.00,0.3892
1373.00,0.3885
1372.00,0.3880
1371.00,0.3880
1370.00,0.3882
1369.00,0.3886
1368.00,0.3891
1367.00,0.3895
1366.00,0.3894
1365.00,0.3886
1364.00,0.3873
1363.00,0.3858
1362.00,0.3844
1361.00,0.3835
1360.00,0.3830
1359.00,0.3829
1358.00,0.3830
1357.00,0.3831
1356.00,0.3834
1355.00,0.3837
1354.00,0.3841
1353.00,0.3845
1352.00,0.3850
1351.00,0.3855
1350.00,0.3860
1349.00,0.3865
1348.00,0.3869
1347.00,0.3874
1346.00,0.3878
1345.00,0.3883
1344.00,0.3887
1343.00,0.3893
1342.00,0.3900
1341.00,0.3906
1340.00,0.3912
1339.00,0.3918
1338.00,0.3923
1337.00,0.3928
1336.00,0.3933
1335.00,0.3939
1334.00,0.3945
1333.00,0.3950
1332.00,0.3955
1331.00,0.3960
1330.00,0.3965
1329.00,0.3970
1328.00,0.3975
1327.00,0.3981
1326.00,0.3987
1325.00,0.3993
1324.00,0.4001
1323.00,0.4009
1322.00,0.4018
1321.00,0.4027
1320.00,0.4037
1319.00,0.4047
1318.00,0.4057
1317.00,0.4067
1316.00,0.4078
1315.00,0.4090
1314.00,0.4102
1313.00,0.4113
1312.00,0.4126
1311.00,0.4139
1310.00,0.4153
1309.00,0.4167
1308.00,0.4183
1307.00,0.4201
1306.00,0.4219
1305.00,0.4239
1304.00,0.4261
1303.00,0.4285
1302.00,0.4310
1301.00,0.4336
1300.00,0.4363
1299.00,0.4391
1298.00,0.4418
1297.00,0.4444
1296.00,0.4469
1295.00,0.4492
1294.00,0.4514
1293.00,0.4536
1292.00,0.4560
1291.00,0.4588
1290.00,0.4621
1289.00,0.4661
1288.00,0.4709
1287.00,0.4769
1286.00,0.4841
1285.00,0.4928
1284.00,0.5036
1283.00,0.5169
1282.00,0.5334
1281.00,0.5539
1280.00,0.5793
1279.00,0.6106
1278.00,0.6479
1277.00,0.6909
1276.00,0.7383
1275.00,0.7873
1274.00,0.8337
1273.00,0.8737
1272.00,0.9044
1271.00,0.9237
1270.00,0.9315
1269.00,0.9294
1268.00,0.9202
1267.00,0.9063
1266.00,0.8899
1265.00,0.8730
1264.00,0.8567
1263.00,0.8409
1262.00,0.8249
1261.00,0.8077
1260.00,0.7879
1259.00,0.7634
1258.00,0.7325
1257.00,0.6954
1256.00,0.6540
1255.00,0.6115
1254.00,0.5714
1253.00,0.5364
1252.00,0.5077
1251.00,0.4854
1250.00,0.4685
1249.00,0.4558
1248.00,0.4463
1247.00,0.4393
1246.00,0.4340
1245.00,0.4301
1244.00,0.4272
1243.00,0.4252
1242.00,0.4237
1241.00,0.4226
1240.00,0.4218
1239.00,0.4213
1238.00,0.4210
1237.00,0.4209
1236.00,0.4210
1235.00,0.4214
1234.00,0.4220
1233.00,0.4227
1232.00,0.4235
1231.00,0.4245
1230.00,0.4255
1229.00,0.4266
1228.00,0.4278
1227.00,0.4291
1226.00,0.4305
1225.00,0.4319
1224.00,0.4334
1223.00,0.4350
1222.00,0.4367
1221.00,0.4385
1220.00,0.4404
1219.00,0.4423
1218.00,0.4443
1217.00,0.4463
1216.00,0.4483
1215.00,0.4505
1214.00,0.4528
1213.00,0.4551
1212.00,0.4577
1211.00,0.4604
1210.00,0.4633
1209.00,0.4664
1208.00,0.4696
1207.00,0.4730
1206.00,0.4766
1205.00,0.4802
1204.00,0.4841
1203.00,0.4882
1202.00,0.4923
1201.00,0.4966
1200.00,0.5010
1199.00,0.5054
1198.00,0.5098
1197.00,0.5140
1196.00,0.5182
1195.00,0.5223
1194.00,0.5263
1193.00,0.5303
1192.00,0.5343
1191.00,0.5385
1190.00,0.5428
1189.00,0.5472
1188.00,0.5520
1187.00,0.5571
1186.00,0.5624
1185.00,0.5681
1184.00,0.5741
1183.00,0.5807
1182.00,0.5880
1181.00,0.5961
1180.00,0.6051
1179.00,0.6148
1178.00,0.6250
1177.00,0.6356
1176.00,0.6468
1175.00,0.6584
1174.00,0.6701
1173.00,0.6816
1172.00,0.6927
1171.00,0.7031
1170.00,0.7125
1169.00,0.7212
1168.00,0.7295
1167.00,0.7378
1166.00,0.7461
1165.00,0.7550
1164.00,0.7647
1163.00,0.7751
1162.00,0.7861
1161.00,0.7978
1160.00,0.8102
1159.00,0.8231
1158.00,0.8362
1157.00,0.8494
1156.00,0.8628
1155.00,0.8761
1154.00,0.8890
1153.00,0.9017
1152.00,0.9145
1151.00,0.9270
1150.00,0.9391
1149.00,0.9509
1148.00,0.9626
1147.00,0.9738
1146.00,0.9843
1145.00,0.9943
1144.00,1.0040
1143.00,1.0132
1142.00,1.0216
1141.00,1.0297
1140.00,1.0377
1139.00,1.0453
1138.00,1.0522
1137.00,1.0588
1136.00,1.0654
1135.00,1.0713
1134.00,1.0764
1133.00,1.0811
1132.00,1.0858
1131.00,1.0900
1130.00,1.0935
1129.00,1.0967
1128.00,1.1000
1127.00,1.1028
1126.00,1.1050
1125.00,1.1067
1124.00,1.1085
1123.00,1.1098
1122.00,1.1105
1121.00,1.1110
1120.00,1.1116
1119.00,1.1121
1118.00,1.1119
1117.00,1.1117
1116.00,1.1117
1115.00,1.1115
1114.00,1.1107
1113.00,1.1098
1112.00,1.1092
1111.00,1.1086
1110.00,1.1077
1109.00,1.1070
1108.00,1.1069
1107.00,1.1069
1106.00,1.1067
1105.00,1.1065
1104.00,1.1067
1103.00,1.1069
1102.00,1.1069
1101.00,1.1072
1100.00,1.1084
1099.00,1.1100
1098.00,1.1117
1097.00,1.1137
1096.00,1.1161
1095.00,1.1185
1094.00,1.1205
1093.00,1.1223
1092.00,1.1243
1091.00,1.1261
1090.00,1.1274
1089.00,1.1287
1088.00,1.1305
1087.00,1.1323
1086.00,1.1338
1085.00,1.1353
1084.00,1.1373
1083.00,1.1390
1082.00,1.1402
1081.00,1.1414
1080.00,1.1430
1079.00,1.1442
1078.00,1.1448
1077.00,1.1452
1076.00,1.1459
1075.00,1.1463
1074.00,1.1459
1073.00,1.1453
1072.00,1.1448
1071.00,1.1441
1070.00,1.1430
1069.00,1.1423
1068.00,1.1423
1067.00,1.1426
1066.00,1.1428
1065.00,1.1432
1064.00,1.1442
1063.00,1.1452
1062.00,1.1458
1061.00,1.1466
1060.00,1.1481
1059.00,1.1499
1058.00,1.1519
1057.00,1.1544
1056.00,1.1578
1055.00,1.1615
1054.00,1.1651
1053.00,1.1693
1052.00,1.1744
1051.00,1.1797
1050.00,1.1847
1049.00,1.1899
1048.00,1.1956
1047.00,1.2013
1046.00,1.2066
1045.00,1.2121
1044.00,1.2182
1043.00,1.2242
1042.00,1.2296
1041.00,1.2350
1040.00,1.2408
1039.00,1.2465
1038.00,1.2515
1037.00,1.2565
1036.00,1.2617
1035.00,1.2664
1034.00,1.2701
1033.00,1.2730
1032.00,1.2753
1031.00,1.2765
1030.00,1.2760
1029.00,1.2746
1028.00,1.2726
1027.00,1.2692
1026.00,1.2639
1025.00,1.2571
1024.00,1.2488
1023.00,1.2385
1022.00,1.2257
1021.00,1.2110
1020.00,1.1947
1019.00,1.1766
1018.00,1.1566
1017.00,1.1353
1016.00,1.1130
1015.00,1.0895
1014.00,1.0647
1013.00,1.0391
1012.00,1.0129
1011.00,0.9860
1010.00,0.9584
1009.00,0.9306
1008.00,0.9031
1007.00,0.8759
1006.00,0.8490
1005.00,0.8227
1004.00,0.7973
1003.00,0.7726
1002.00,0.7487
1001.00,0.7257
1000.00,0.7038
999.00,0.6828
998.00,0.6629
997.00,0.6439
996.00,0.6260
995.00,0.6093
994.00,0.5934
993.00,0.5785
992.00,0.5644
991.00,0.5513
990.00,0.5389
989.00,0.5272
988.00,0.5164
987.00,0.5063
986.00,0.4970
985.00,0.4883
984.00,0.4803
983.00,0.4729
982.00,0.4661
981.00,0.4599
980.00,0.4543
979.00,0.4493
978.00,0.4449
977.00,0.4412
976.00,0.4382
975.00,0.4361
974.00,0.4348
973.00,0.4344
972.00,0.4350
971.00,0.4365
970.00,0.4389
969.00,0.4423
968.00,0.4465
967.00,0.4514
966.00,0.4567
965.00,0.4620
964.00,0.4671
963.00,0.4716
962.00,0.4754
961.00,0.4782
960.00,0.4799
959.00,0.4807
958.00,0.4806
957.00,0.4796
956.00,0.4781
955.00,0.4760
954.00,0.4736
953.00,0.4708
952.00,0.4678
951.00,0.4647
950.00,0.4615
949.00,0.4582
948.00,0.4547
947.00,0.4512
946.00,0.4477
945.00,0.4440
944.00,0.4403
943.00,0.4365
942.00,0.4325
941.00,0.4285
940.00,0.4243
939.00,0.4202
938.00,0.4160
937.00,0.4119
936.00,0.4078
935.00,0.4039
934.00,0.4002
933.00,0.3966
932.00,0.3933
931.00,0.3901
930.00,0.3871
929.00,0.3843
928.00,0.3817
927.00,0.3792
926.00,0.3770
925.00,0.3748
924.00,0.3729
923.00,0.3712
922.00,0.3696
921.00,0.3681
920.00,0.3667
919.00,0.3654
918.00,0.3642
917.00,0.3629
916.00,0.3618
915.00,0.3607
914.00,0.3598
913.00,0.3589
912.00,0.3580
911.00,0.3573
910.00,0.3566
909.00,0.3559
908.00,0.3552
907.00,0.3546
906.00,0.3540
905.00,0.3535
904.00,0.3530
903.00,0.3526
902.00,0.3524
901.00,0.3522
900.00,0.3521
899.00,0.3520
898.00,0.3521
897.00,0.3522
896.00,0.3524
895.00,0.3528
894.00,0.3533
893.00,0.3540
892.00,0.3548
891.00,0.3559
890.00,0.3571
889.00,0.3585
888.00,0.3600
887.00,0.3619
886.00,0.3639
885.00,0.3663
884.00,0.3690
883.00,0.3722
882.00,0.3759
881.00,0.3800
880.00,0.3847
879.00,0.3898
878.00,0.3955
877.00,0.4016
876.00,0.4082
875.00,0.4153
874.00,0.4229
873.00,0.4307
872.00,0.4389
871.00,0.4474
870.00,0.4560
869.00,0.4647
868.00,0.4733
867.00,0.4820
866.00,0.4906
865.00,0.4991
864.00,0.5075
863.00,0.5158
862.00,0.5238
861.00,0.5313
860.00,0.5383
859.00,0.5445
858.00,0.5498
857.00,0.5541
856.00,0.5573
855.00,0.5595
854.00,0.5608
853.00,0.5615
852.00,0.5616
851.00,0.5615
850.00,0.5611
849.00,0.5607
848.00,0.5603
847.00,0.5596
846.00,0.5588
845.00,0.5577
844.00,0.5563
843.00,0.5544
842.00,0.5520
841.00,0.5494
840.00,0.5466
839.00,0.5439
838.00,0.5413
837.00,0.5392
836.00,0.5377
835.00,0.5369
834.00,0.5370
833.00,0.5378
832.00,0.5396
831.00,0.5423
830.00,0.5458
829.00,0.5501
828.00,0.5553
827.00,0.5614
826.00,0.5684
825.00,0.5762
824.00,0.5850
823.00,0.5947
822.00,0.6052
821.00,0.6164
820.00,0.6282
819.00,0.6406
818.00,0.6534
817.00,0.6667
816.00,0.6804
815.00,0.6944
814.00,0.7088
813.00,0.7236
812.00,0.7392
811.00,0.7556
810.00,0.7730
809.00,0.7915
808.00,0.8109
807.00,0.8310
806.00,0.8512
805.00,0.8711
804.00,0.8900
803.00,0.9072
802.00,0.9223
801.00,0.9346
800.00,0.9435
799.00,0.9485
798.00,0.9490
797.00,0.9452
796.00,0.9376
795.00,0.9270
794.00,0.9149
793.00,0.9028
792.00,0.8920
791.00,0.8835
790.00,0.8780
789.00,0.8754
788.00,0.8755
787.00,0.8774
786.00,0.8803
785.00,0.8829
784.00,0.8844
783.00,0.8837
782.00,0.8801
781.00,0.8735
780.00,0.8642
779.00,0.8529
778.00,0.8406
777.00,0.8280
776.00,0.8158
775.00,0.8045
774.00,0.7943
773.00,0.7853
772.00,0.7775
771.00,0.7705
770.00,0.7640
769.00,0.7577
768.00,0.7513
767.00,0.7444
766.00,0.7367
765.00,0.7279
764.00,0.7182
763.00,0.7075
762.00,0.6960
761.00,0.6842
760.00,0.6721
759.00,0.6599
758.00,0.6476
757.00,0.6351
756.00,0.6226
755.00,0.6098
754.00,0.5969
753.00,0.5839
752.00,0.5709
751.00,0.5580
750.00,0.5451
749.00,0.5325
748.00,0.5201
747.00,0.5080
746.00,0.4963
745.00,0.4851
744.00,0.4743
743.00,0.4639
742.00,0.4541
741.00,0.4447
740.00,0.4358
739.00,0.4276
738.00,0.4200
737.00,0.4131
736.00,0.4069
735.00,0.4013
734.00,0.3965
733.00,0.3923
732.00,0.3887
731.00,0.3858
730.00,0.3836
729.00,0.3820
728.00,0.3810
727.00,0.3804
726.00,0.3802
725.00,0.3801
724.00,0.3799
723.00,0.3796
722.00,0.3791
721.00,0.3785
720.00,0.3776
719.00,0.3764
718.00,0.3749
717.00,0.3732
716.00,0.3714
715.00,0.3695
714.00,0.3676
713.00,0.3658
712.00,0.3642
711.00,0.3630
710.00,0.3622
709.00,0.3618
708.00,0.3619
707.00,0.3622
706.00,0.3627
705.00,0.3633
704.00,0.3638
703.00,0.3640
702.00,0.3639
701.00,0.3635
700.00,0.3627
699.00,0.3617
698.00,0.3604
697.00,0.3589
696.00,0.3574
695.00,0.3557
694.00,0.3541
693.00,0.3524
692.00,0.3507
691.00,0.3491
690.00,0.3476
689.00,0.3461
688.00,0.3446
687.00,0.3432
686.00,0.3416
685.00,0.3398
684.00,0.3379
683.00,0.3359
682.00,0.3340
681.00,0.3320
680.00,0.3301
679.00,0.3283
678.00,0.3266
677.00,0.3249
676.00,0.3233
675.00,0.3219
674.00,0.3204
673.00,0.3190
672.00,0.3181
671.00,0.3183
670.00,0.3190
669.00,0.3192
668.00,0.3179
667.00,0.3154
666.00,0.3128
665.00,0.3106
664.00,0.3087
663.00,0.3073
662.00,0.3063
661.00,0.3053
660.00,0.3042
659.00,0.3031
658.00,0.3021
657.00,0.3011
656.00,0.3001
655.00,0.2992
654.00,0.2985
653.00,0.2977
652.00,0.2968
651.00,0.2959
650.00,0.2951
649.00,0.2943
648.00,0.2936
647.00,0.2928
646.00,0.2922
645.00,0.2916
644.00,0.2910
643.00,0.2904
642.00,0.2900
641.00,0.2895
640.00,0.2889
639.00,0.2884
638.00,0.2879
637.00,0.2875
636.00,0.2871
635.00,0.2867
634.00,0.2863
633.00,0.2860
632.00,0.2857
631.00,0.2853
630.00,0.2850
629.00,0.2846
628.00,0.2843
627.00,0.2840
626.00,0.2839
625.00,0.2837
624.00,0.2836
623.00,0.2835
622.00,0.2833
621.00,0.2831
620.00,0.2829
619.00,0.2826
618.00,0.2824
617.00,0.2823
616.00,0.2822
615.00,0.2822
614.00,0.2822
613.00,0.2823
612.00,0.2823
611.00,0.2825
610.00,0.2826
609.00,0.2826
608.00,0.2826
607.00,0.2827
606.00,0.2829
605.00,0.2831
604.00,0.2834
603.00,0.2837
602.00,0.2841
601.00,0.2845
600.00,0.2848
599.00,0.2852
598.00,0.2856
597.00,0.2860
596.00,0.2864
595.00,0.2869
594.00,0.2874
593.00,0.2880
592.00,0.2885
591.00,0.2891
590.00,0.2897
589.00,0.2902
588.00,0.2906
587.00,0.2911
586.00,0.2917
585.00,0.2923
584.00,0.2928
583.00,0.2934
582.00,0.2941
581.00,0.2946
580.00,0.2950
579.00,0.2954
578.00,0.2956
577.00,0.2958
576.00,0.2958
575.00,0.2959
574.00,0.2961
573.00,0.2963
572.00,0.2965
571.00,0.2968
570.00,0.2971
569.00,0.2972
568.00,0.2972
567.00,0.2971
566.00,0.2970
565.00,0.2969
564.00,0.2968
563.00,0.2969
562.00,0.2971
561.00,0.2973
560.00,0.2974
559.00,0.2976
558.00,0.2977
557.00,0.2976
556.00,0.2974
555.00,0.2972
554.00,0.2971
553.00,0.2969
552.00,0.2967
551.00,0.2965
550.00,0.2962
549.00,0.2959
548.00,0.2955
547.00,0.2950
546.00,0.2944
545.00,0.2939
544.00,0.2934
543.00,0.2930
542.00,0.2927
541.00,0.2923
540.00,0.2919
539.00,0.2913
538.00,0.2907
537.00,0.2900
536.00,0.2892
535.00,0.2884
534.00,0.2877
533.00,0.2871
532.00,0.2867
531.00,0.2864
530.00,0.2862
529.00,0.2858
528.00,0.2854
527.00,0.2850
526.00,0.2845
525.00,0.2839
524.00,0.2833
523.00,0.2830
522.00,0.2829
521.00,0.2827
520.00,0.2826
519.00,0.2825
518.00,0.2825
517.00,0.2823
516.00,0.2820
515.00,0.2817
514.00,0.2816
513.00,0.2814
512.00,0.2812
511.00,0.2811
510.00,0.2813
509.00,0.2813
508.00,0.2811
507.00,0.2810
506.00,0.2808
505.00,0.2807
504.00,0.2804
503.00,0.2804
502.00,0.2806
501.00,0.2807
500.00,0.2808
499.00,0.2809
498.00,0.2811
497.00,0.2813
496.00,0.2811
495.00,0.2808
494.00,0.2806
493.00,0.2804
492.00,0.2802
491.00,0.2802
490.00,0.2804
489.00,0.2808
488.00,0.2809
487.00,0.2810
486.00,0.2811
485.00,0.2809
484.00,0.2805
483.00,0.2800
482.00,0.2798
481.00,0.2798
480.00,0.2800
479.00,0.2802
478.00,0.2805
477.00,0.2807
476.00,0.2806
475.00,0.2803
474.00,0.2799
473.00,0.2796
472.00,0.2796
471.00,0.2801
470.00,0.2812
469.00,0.2828
468.00,0.2848
467.00,0.2870
466.00,0.2892
465.00,0.2917
464.00,0.2946
463.00,0.2980
462.00,0.3017
461.00,0.3058
460.00,0.3106
459.00,0.3162
458.00,0.3223
457.00,0.3286
456.00,0.3347
455.00,0.3406
454.00,0.3460
453.00,0.3511
452.00,0.3562
451.00,0.3612
450.00,0.3659
